Folder: SCA24_Hackathon/finetune/datasets/Experimental thermoelectric properties 2013

Note: finetune/README.md
## Data

Included within our resources is a 'datasets.zip' file, which contains a selection of Darwin datasets https://github.com/MasterAI-EAM/Darwin/tree/main/dataset. For convenience, you can directly upload this zip file using the following command and then unzip it to access the datasets. Alternatively, if you prefer to use a different dataset, feel free to select any of your choice from the Darwin project repository at Darwin Dataset Collection. Once selected, compress your chosen dataset and upload it for use.


## `LLM_Finetune_For_Solubility_Data.ipynb` is an implementation of Darwin's training script  
reference: `(https://github.com/MasterAI-EAM/Darwin/blob/main/train.py)`

This version has been tested and seems to be producing reliable results.



## `LLM_Finetune_For_Solubility_Data_SFTT.ipynb` uses Parameter Efficient Fine Tunining (PEFT)

File: MRL.csv
doi,Electrical resistivity (Ωcm),Seebeck coefficient (μCV/K),ZT (thermoelectric figure of merit) ,formula,synthesis,form,temperature,Thermal conductivity (W/mK),Average atomic mass (g/mol),Scarcity (wt fraction/abundance),HHIP (Herfindahl?Hirschman Index for elemental production),HHIR (Herfindahl?Hirschman Index for elemental reserves),Unit cell volume (Å³),Average atomic volume (Å³),Atoms per unit cell,Electrical conductivity (Ω⁻¹ cm⁻¹),Power Factor (W/(K²m)),S² (μV/K)²,Electronic fraction of thermal conductivity (ϰₑ/ϰ)
10.1002/adfm.201000970,0.457,470,0.01,Ca5Al2Sb6,"solid state reaction, Ar",polycrystalline,300,1.54,75.76,3709000,6736,2896,770.68,29.642,26,2.188,4.83E-05,221000,0.00104
10.1002/adfm.201000970,0.033,193,0.03,Ca4.95Na0.05Al2Sb6,"solid state reaction, Ar",polycrystalline,300,1.49,75.7,3712000,6735,2896,770.68,29.642,26,30.1,0.000112,37200,0.015
10.1002/adfm.201000970,0.00506,143,0.12,Ca4.75Na0.25Al2Sb6,"solid state reaction, Ar",polycrystalline,300,1.45,75.43,3725000,6732,2896,770.68,29.642,26,198,0.000402,20400,0.1
10.1002/adfm.201000970,0.409,463,0.02,Ca5Al2Sb6,"solid state reaction, Ar",polycrystalline,400,1.23,75.76,3709000,6736,2896,770.68,29.642,26,2.445,5.24E-05,214000,0.00194
10.1002/adfm.201000970,0.022,220,0.09,Ca4.95Na0.05Al2Sb6,"solid state reaction, Ar",polycrystalline,400,1.2,75.7,3712000,6735,2896,770.68,29.642,26,44.6,0.000216,48400,0.036
10.1002/adfm.201000970,0.00544,161,0.19,Ca4.75Na0.25Al2Sb6,"solid state reaction, Ar",polycrystalline,400,1.16,75.43,3725000,6732,2896,770.68,29.642,26,184,0.000476,25900,0.155
10.1002/adfm.201000970,0.235,390,0.05,Ca5Al2Sb6,"solid state reaction, Ar",polycrystalline,700,0.764,75.76,3709000,6736,2896,770.68,29.642,26,4.257,6.48E-05,152000,0.00952
10.1002/adfm.201000970,0.018,262,0.26,Ca4.95Na0.05Al2Sb6,"solid state reaction, Ar",polycrystalline,700,0.833,75.7,3712000,6735,2896,770.68,29.642,26,55.2,0.000378,68500,0.113
10.1002/adfm.201000970,0.00733,201,0.39,Ca4.75Na0.25Al2Sb6,"solid state reaction, Ar",polycrystalline,700,0.82,75.43,3725000,6732,2896,770.68,29.642,26,136,0.00055,40300,0.284
10.1002/adfm.201000970,0.00939,207,0.46,Ca4.75Na0.25Al2Sb6,"solid state reaction, Ar",polycrystalline,1000,0.703,75.43,3725000,6732,2896,770.68,29.642,26,106,0.000456,42800,0.37
10.1002/chin.199644003,0.165,-25,0.000114,K1Bi6.33S10,"solid state reaction, vacuum",polycrystalline,300,1.3,97.09,46250000,4345,5070,1204.18,33.449,36,6.061,3.79E-07,625,0.00341
10.1002/chin.200318015,2.919,-752,0.00582,Nd2Cu1O4,"solid state reaction, air",polycrystalline,300,29.6,59.43,21000,6889,2479,189.28,13.52,14,0.343,1.94E-05,566000,8.47E-06
10.1002/chin.200318015,0.059,-249,0.03,Nd2Cu0.98Ni0.02O4,"solid state reaction, air",polycrystalline,300,9.811,59.42,20980,6888,2480,189.28,13.52,14,16.8,0.000105,62200,0.00126
10.1002/chin.200318015,0.19,-343,0.02,Nd2Cu0.98Zn0.02O4,"solid state reaction, air",polycrystalline,300,17.1,59.44,21000,6888,2481,189.28,13.52,14,5.269,6.21E-05,118000,0.000226
10.1002/chin.200318015,2.162,-618,0.00708,Nd2Cu1O4,"solid state reaction, air",polycrystalline,400,13.7,59.43,21000,6889,2479,189.28,13.52,14,0.463,1.77E-05,382000,3.30E-05
10.1002/chin.200318015,0.038,-183,0.03,Nd2Cu0.98Ni0.02O4,"solid state reaction, air",polycrystalline,400,8.03,59.42,20980,6888,2480,189.28,13.52,14,26.1,8.72E-05,33400,0.00318
10.1002/chin.200318015,0.141,-294,0.02,Nd2Cu0.98Zn0.02O4,"solid state reaction, air",polycrystalline,400,11.1,59.44,21000,6888,2481,189.28,13.52,14,7.115,6.17E-05,86700,0.000626
10.1002/chin.200318015,0.024,-100,0.03,Nd2Cu1O4,"solid state reaction, air",polycrystalline,700,4.19,59.43,21000,6889,2479,189.28,13.52,14,41,4.08E-05,9940,0.017
10.1002/chin.200318015,0.022,-99,0.03,Nd2Cu0.98Ni0.02O4,"solid state reaction, air",polycrystalline,700,5.25,59.42,20980,6888,2480,189.28,13.52,14,46.3,4.49E-05,9700,0.015
10.1002/chin.200318015,0.076,-176,0.03,Nd2Cu0.98Zn0.02O4,"solid state reaction, air",polycrystalline,700,5.22,59.44,21000,6888,2481,189.28,13.52,14,13.1,4.04E-05,30800,0.00429
10.1002/chin.200318015,0.00158,26,0.04,Nd2Cu1O4,"solid state reaction, air",polycrystalline,1000,3.94,59.43,21000,6889,2479,189.28,13.52,14,631,4.35E-05,690,0.391
10.1002/chin.200318015,0.023,-83,0.03,Nd2Cu0.98Ni0.02O4,"solid state reaction, air",polycrystalline,1000,3.902,59.42,20980,6888,2480,189.28,13.52,14,43.6,2.98E-05,6830,0.027
10.1002/chin.200318015,0.037,-64,0.01,Nd2Cu0.98Zn0.02O4,"solid state reaction, air",polycrystalline,1000,3.63,59.44,21000,6888,2481,189.28,13.52,14,26.9,1.09E-05,4060,0.018
10.1006/jssc.1995.1384,0.00371,-83,0.06,Ca0.9Bi0.1Mn1O3,"solid state reaction, air",polycrystalline,300,3.591,31.98,7688000,2260,1887,213.57,10.678,20,270,0.000184,6830,0.055
10.1006/jssc.1995.1384,0.00729,-49,0.00995,Ca0.9Ce0.1Mn1O3,"solid state reaction, air",polycrystalline,300,,30.6,1819,2506,1440,215.14,10.757,20,137,3.32E-05,2420,
10.1006/jssc.1995.1384,0.018,-87,0.01,Ca0.9Y0.1Mn1O3,"solid state reaction, air",polycrystalline,300,,29.58,2323,2287,1352,215.14,10.757,20,56.3,4.23E-05,7510,
10.1006/jssc.1995.1384,0.00863,-102,0.04,Ca0.9Sm0.1Mn1O3,"solid state reaction, air",polycrystalline,300,,30.81,15330,2553,1451,210.39,10.519,20,116,0.000121,10400,
10.1006/jssc.1995.1384,0.462,-70,0.000317,Ca0.9Sb0.1Mn1O3,"solid state reaction, air",polycrystalline,300,,30.24,403100,2295,1442,210.39,10.519,20,2.164,1.06E-06,4890,
10.1006/jssc.1995.1384,0.00796,-93,0.03,Ca0.9La0.1Mn1O3,"solid state reaction, air",polycrystalline,300,,30.58,2861,2501,1438,212.03,10.602,20,126,0.000109,8650,
10.1006/jssc.1995.1384,0.045,-274,0.05,Ca0.9Pb0.1Mn1O3,"solid state reaction, air",polycrystalline,300,,31.95,11170,1922,1336,212.03,10.602,20,22.5,0.000169,75200,
10.1006/jssc.1995.1384,0.215,-348,0.02,Ca0.9In0.1Mn1O3,"solid state reaction, air",polycrystalline,300,,30.1,372600,1921,1325,212.03,10.602,20,4.651,5.65E-05,121000,
10.1006/jssc.1995.1384,2.198,-284,0.0011,Ca0.9Sn0.1Mn1O3,"solid state reaction, air",polycrystalline,300,,30.18,35350,1866,1298,212.03,10.602,20,0.455,3.67E-06,80600,
10.1006/jssc.1995.1384,6.975,-477,0.000977,Ca1Mn1O3,"solid state reaction, air",polycrystalline,300,2.99,28.6,398,1861,1276,206.97,10.348,20,0.143,3.26E-06,227000,3.51E-05
10.1006/jssc.1995.1384,0.004,-101,0.1,Ca0.9Bi0.1Mn1O3,"solid state reaction, air",polycrystalline,400,3.147,31.98,7688000,2260,1887,213.57,10.678,20,250,0.000254,10200,0.078
10.1006/jssc.1995.1384,0.00645,-55,0.02,Ca0.9Ce0.1Mn1O3,"solid state reaction, air",polycrystalline,400,,30.6,1819,2506,1440,215.14,10.757,20,155,4.76E-05,3070,
10.1006/jssc.1995.1384,0.015,-91,0.02,Ca0.9Y0.1Mn1O3,"solid state reaction, air",polycrystalline,400,,29.58,2323,2287,1352,215.14,10.757,20,66.1,5.50E-05,8320,
10.1006/jssc.1995.1384,0.00747,-106,0.06,Ca0.9Sm0.1Mn1O3,"solid state reaction, air",polycrystalline,400,,30.81,15330,2553,1451,210.39,10.519,20,134,0.00015,11200,
10.1006/jssc.1995.1384,0.115,-71,0.00175,Ca0.9Sb0.1Mn1O3,"solid state reaction, air",polycrystalline,400,,30.24,403100,2295,1442,210.39,10.519,20,8.674,4.36E-06,5030,
10.1006/jssc.1995.1384,0.00699,-98,0.06,Ca0.9La0.1Mn1O3,"solid state reaction, air",polycrystalline,400,,30.58,2861,2501,1438,212.03,10.602,20,143,0.000139,9680,
10.1006/jssc.1995.1384,0.052,-266,0.05,Ca0.9Pb0.1Mn1O3,"solid state reaction, air",polycrystalline,400,,31.95,11170,1922,1336,212.03,10.602,20,19.1,0.000135,70800,
10.1006/jssc.1995.1384,0.205,-357,0.02,Ca0.9In0.1Mn1O3,"solid state reaction, air",polycrystalline,400,,30.1,372600,1921,1325,212.03,10.602,20,4.887,6.21E-05,127000,
10.1006/jssc.1995.1384,2.302,-282,0.00138,Ca0.9Sn0.1Mn1O3,"solid state reaction, air",polycrystalline,400,,30.18,35350,1866,1298,212.03,10.602,20,0.434,3.45E-06,79400,
10.1006/jssc.1995.1384,2.87,-461,0.00296,Ca1Mn1O3,"solid state reaction, air",polycrystalline,400,3.178,28.6,398,1861,1276,206.97,10.348,20,0.348,7.41E-06,213000,0.000107
10.1006/jssc.1995.1384,0.005,-120,0.2,Ca0.9Bi0.1Mn1O3,"solid state reaction, air",polycrystalline,700,2.214,31.98,7688000,2260,1887,213.57,10.678,20,200,0.000287,14300,0.154
10.1006/jssc.1995.1384,0.00666,-60,0.04,Ca0.9Ce0.1Mn1O3,"solid state reaction, air",polycrystalline,700,,30.6,1819,2506,1440,215.14,10.757,20,150,5.40E-05,3600,
10.1006/jssc.1995.1384,0.016,-103,0.05,Ca0.9Y0.1Mn1O3,"solid state reaction, air",polycrystalline,700,,29.58,2323,2287,1352,215.14,10.757,20,63.1,6.64E-05,10500,
10.1006/jssc.1995.1384,0.00788,-147,0.19,Ca0.9Sm0.1Mn1O3,"solid state reaction, air",polycrystalline,700,,30.81,15330,2553,1451,210.39,10.519,20,127,0.000273,21500,
10.1006/jssc.1995.1384,0.067,-81,0.00686,Ca0.9Sb0.1Mn1O3,"solid state reaction, air",polycrystalline,700,,30.24,403100,2295,1442,210.39,10.519,20,14.9,9.80E-06,6570,
10.1006/jssc.1995.1384,0.00855,-117,0.11,Ca0.9La0.1Mn1O3,"solid state reaction, air",polycrystalline,700,,30.58,2861,2501,1438,212.03,10.602,20,117,0.00016,13700,
10.1006/jssc.1995.1384,0.061,-277,0.09,Ca0.9Pb0.1Mn1O3,"solid state reaction, air",polycrystalline,700,,31.95,11170,1922,1336,212.03,10.602,20,16.5,0.000127,76800,
10.1006/jssc.1995.1384,0.231,-411,0.05,Ca0.9In0.1Mn1O3,"solid state reaction, air",polycrystalline,700,,30.1,372600,1921,1325,212.03,10.602,20,4.333,7.32E-05,169000,
10.1006/jssc.1995.1384,2.082,-255,0.00219,Ca0.9Sn0.1Mn1O3,"solid state reaction, air",polycrystalline,700,,30.18,35350,1866,1298,212.03,10.602,20,0.48,3.13E-06,65100,
10.1006/jssc.1995.1384,0.485,-332,0.02,Ca1Mn1O3,"solid state reaction, air",polycrystalline,700,3.311,28.6,398,1861,1276,206.97,10.348,20,2.061,2.27E-05,110000,0.00106
10.1006/jssc.1995.1384,0.00519,-96,0.18,Ca0.9Bi0.1Mn1O3,"solid state reaction, air",polycrystalline,1000,1.841,31.98,7688000,2260,1887,213.57,10.678,20,193,0.000178,9220,0.255
10.1006/jssc.1995.1384,0.00789,-80,0.08,Ca0.9Ce0.1Mn1O3,"solid state reaction, air",polycrystalline,1000,,30.6,1819,2506,1440,215.14,10.757,20,127,8.21E-05,6480,
10.1006/jssc.1995.1384,0.018,-108,0.07,Ca0.9Y0.1Mn1O3,"solid state reaction, air",polycrystalline,1000,,29.58,2323,2287,1352,215.14,10.757,20,56.8,6.57E-05,11600,
10.1006/jssc.1995.1384,0.00783,-123,0.19,Ca0.9Sm0.1Mn1O3,"solid state reaction, air",polycrystalline,1000,,30.81,15330,2553,1451,210.39,10.519,20,128,0.000192,15100,
10.1006/jssc.1995.1384,0.064,-70,0.00765,Ca0.9Sb0.1Mn1O3,"solid state reaction, air",polycrystalline,1000,,30.24,403100,2295,1442,210.39,10.519,20,15.6,7.65E-06,4920,
10.1006/jssc.1995.1384,0.01,-88,0.08,Ca0.9La0.1Mn1O3,"solid state reaction, air",polycrystalline,1000,,30.58,2861,2501,1438,212.03,10.602,20,97.2,7.60E-05,7820,
10.1006/jssc.1995.1384,0.047,-115,0.03,Ca0.9Pb0.1Mn1O3,"solid state reaction, air",polycrystalline,1000,,31.95,11170,1922,1336,212.03,10.602,20,21.4,2.81E-05,13200,
10.1006/jssc.1995.1384,0.173,-235,0.03,Ca0.9In0.1Mn1O3,"solid state reaction, air",polycrystalline,1000,,30.1,372600,1921,1325,212.03,10.602,20,5.766,3.18E-05,55100,
10.1006/jssc.1995.1384,0.479,-145,0.00442,Ca0.9Sn0.1Mn1O3,"solid state reaction, air",polycrystalline,1000,,30.18,35350,1866,1298,212.03,10.602,20,2.089,4.42E-06,21200,
10.1006/jssc.1995.1384,0.087,-193,0.04,Ca1Mn1O3,"solid state reaction, air",polycrystalline,1000,3.445,28.6,398,1861,1276,206.97,10.348,20,11.4,4.25E-05,37200,0.0081
10.1007/978-3-540-88201-5_24,0.00962,-50,0.00771,Sr1Dy0.08Ti0.92O3,"solid state reaction, air",polycrystalline,300,4.195,38.53,13120,2920,2055,60.64,12.128,5,104,2.57E-05,2470,0.018
10.1007/978-3-540-88201-5_24,0.0026,-32,0.01,Sr1Nd0.17Ti0.83O3,"solid state reaction, air",polycrystalline,300,6.19,39.97,4528,3337,2128,60.64,12.128,5,385,4.07E-05,1060,0.046
10.1007/978-3-540-88201-5_24,0.00184,-34,0.02,Sr1Nd0.2Ti0.8O3,"solid state reaction, air",polycrystalline,300,5.53,40.55,5035,3484,2153,60.64,12.128,5,544,6.44E-05,1180,0.072
10.1007/978-3-540-88201-5_24,0.00225,-23,0.00682,Sr1Nd0.24Ti0.76O3,"solid state reaction, air",polycrystalline,300,5.98,41.32,5689,3673,2186,60.64,12.128,5,445,2.27E-05,511,0.054
10.1007/978-3-540-88201-5_24,0.004,-70,0.05,Sr1Dy0.08Ti0.92O3,"solid state reaction, air",polycrystalline,400,3.74,38.53,13120,2920,2055,60.64,12.128,5,250,0.000124,4970,0.065
10.1007/978-3-540-88201-5_24,0.00193,-42,0.04,Sr1Nd0.17Ti0.83O3,"solid state reaction, air",polycrystalline,400,5.35,39.97,4528,3337,2128,60.64,12.128,5,519,9.24E-05,1780,0.095
10.1007/978-3-540-88201-5_24,0.00147,-45,0.05,Sr1Nd0.2Ti0.8O3,"solid state reaction, air",polycrystalline,400,4.83,40.55,5035,3484,2153,60.64,12.128,5,678,0.000137,2020,0.137
10.1007/978-3-540-88201-5_24,0.00181,-32,0.02,Sr1Nd0.24Ti0.76O3,"solid state reaction, air",polycrystalline,400,5.29,41.32,5689,3673,2186,60.64,12.128,5,553,5.49E-05,992,0.102
10.1007/978-3-540-88201-5_24,0.00459,-147,0.33,Sr1Dy0.08Ti0.92O3,"solid state reaction, air",polycrystalline,700,3.17,38.53,13120,2920,2055,60.64,12.128,5,218,0.000471,21600,0.117
10.1007/978-3-540-88201-5_24,0.00227,-96,0.28,Sr1Nd0.17Ti0.83O3,"solid state reaction, air",polycrystalline,700,3.87,39.97,4528,3337,2128,60.64,12.128,5,441,0.000406,9220,0.194
10.1007/978-3-540-88201-5_24,0.00195,-94,0.32,Sr1Nd0.2Ti0.8O3,"solid state reaction, air",polycrystalline,700,3.45,40.55,5035,3484,2153,60.64,12.128,5,512,0.000456,8910,0.253
10.1007/978-3-540-88201-5_24,0.00186,-81,0.24,Sr1Nd0.24Ti0.76O3,"solid state reaction, air",polycrystalline,700,3.76,41.32,5689,3673,2186,60.64,12.128,5,537,0.00035,6510,0.244
10.1007/978-3-540-88201-5_24,0.00833,-192,0.44,Sr1Dy0.08Ti0.92O3,"solid state reaction, air",polycrystalline,1000,2.97,38.53,13120,2920,2055,60.64,12.128,5,120,0.000441,36700,0.099
10.1007/978-3-540-88201-5_24,0.00418,-142,0.48,Sr1Nd0.17Ti0.83O3,"solid state reaction, air",polycrystalline,1000,3.397,39.97,4528,3337,2128,60.64,12.128,5,239,0.000481,20100,0.172
10.1007/978-3-540-88201-5_24,0.00395,-140,0.5,Sr1Nd0.2Ti0.8O3,"solid state reaction, air",polycrystalline,1000,3.197,40.55,5035,3484,2153,60.64,12.128,5,253,0.000496,19600,0.193
10.1007/978-3-540-88201-5_24,0.00319,-124,0.48,Sr1Nd0.24Ti0.76O3,"solid state reaction, air",polycrystalline,1000,3.22,41.32,5689,3673,2186,60.64,12.128,5,313,0.000481,15400,0.237
10.1007/s10854-011-0574-8,1400,98,2.05E-07,W1O3,Solid state reaction,polycrystalline,300,,57.96,674900,5639,3511,422.94,13.217,32,0.000713,6.83E-10,9590,
10.1007/s10854-011-0574-8,1250,93,2.06E-07,W0.99O2.97Co0.02O0.03,Solid state reaction,polycrystalline,300,,57.65,670200,5615,3500,422.94,13.217,32,0.000802,6.88E-10,8570,
10.1007/s10854-011-0574-8,114,103,2.79E-06,W0.95O2.95Co0.1O0.15,Solid state reaction,polycrystalline,300,,55.45,646800,5484,3437,422.94,13.217,32,0.00873,9.31E-09,10700,
10.1007/s10854-011-0574-8,561,104,5.77E-07,W0.9O2.7Co0.2O0.3,Solid state reaction,polycrystalline,300,,54.94,627100,5394,3402,422.94,13.217,32,0.00178,1.92E-09,10800,
10.1007/s10854-011-0574-8,810,108,5.72E-07,W1O3,Solid state reaction,polycrystalline,400,,57.96,674900,5639,3511,422.94,13.217,32,0.00123,1.43E-09,11600,
10.1007/s10854-011-0574-8,708,97,5.32E-07,W0.99O2.97Co0.02O0.03,Solid state reaction,polycrystalline,400,,57.65,670200,5615,3500,422.94,13.217,32,0.00141,1.33E-09,9420,
10.1007/s10854-011-0574-8,99.4,106,4.52E-06,W0.95O2.95Co0.1O0.15,Solid state reaction,polycrystalline,400,,55.45,646800,5484,3437,422.94,13.217,32,0.01,1.13E-08,11200,
10.1007/s10854-011-0574-8,176,106,2.54E-06,W0.9O2.7Co0.2O0.3,Solid state reaction,polycrystalline,400,,54.94,627100,5394,3402,422.94,13.217,32,0.00569,6.34E-09,11100,
10.1007/s10854-011-0574-8,108,125,1.01E-05,W1O3,Solid state reaction,polycrystalline,700,,57.96,674900,5639,3511,422.94,13.217,32,0.00922,1.44E-08,15600,
10.1007/s10854-011-0574-8,86,114,1.05E-05,W0.99O2.97Co0.02O0.03,Solid state reaction,polycrystalline,700,,57.65,670200,5615,3500,422.94,13.217,32,0.012,1.50E-08,12900,
10.1007/s10854-011-0574-8,20.2,120,4.99E-05,W0.95O2.95Co0.1O0.15,Solid state reaction,polycrystalline,700,,55.45,646800,5484,3437,422.94,13.217,32,0.049,7.13E-08,14400,
10.1007/s10854-011-0574-8,52.1,122,1.99E-05,W0.9O2.7Co0.2O0.3,Solid state reaction,polycrystalline,700,,54.94,627100,5394,3402,422.94,13.217,32,0.019,2.84E-08,14800,
10.1007/s10854-011-0574-8,64.9,161,3.99E-05,W1O3,Solid state reaction,polycrystalline,1000,,57.96,674900,5639,3511,422.94,13.217,32,0.015,3.99E-08,25900,
10.1007/s10854-011-0574-8,36.4,114,3.56E-05,W0.99O2.97Co0.02O0.03,Solid state reaction,polycrystalline,1000,,57.65,670200,5615,3500,422.94,13.217,32,0.027,3.56E-08,13000,
10.1007/s10854-011-0574-8,15.9,126,9.93E-05,W0.95O2.95Co0.1O0.15,Solid state reaction,polycrystalline,1000,,55.45,646800,5484,3437,422.94,13.217,32,0.063,9.93E-08,15800,
10.1007/s10854-011-0574-8,35.7,124,4.32E-05,W0.9O2.7Co0.2O0.3,Solid state reaction,polycrystalline,1000,,54.94,627100,5394,3402,422.94,13.217,32,0.028,4.32E-08,15400,
10.1007/s11664-009-0735-1,0.00152,-83,0.14,Mg2Si0.98Bi0.02,"solid state reaction, He/H2",polycrystalline,300,7.13,26.77,3061000,5072,957.2,258.55,21.546,12,658,0.000452,6870,0.068
10.1007/s11664-009-0735-1,0.0015,-83,0.14,Mg2Si0.6Ge0.4Bi0.02,"solid state reaction, He/H2",polycrystalline,300,2.98,32.68,2694000,5169,1229,258.35,21.529,12,667,0.000459,6890,0.164
10.1007/s11664-009-0735-1,1.24,26,1.64E-05,Mg2Si0.98Ag0.02,"solid state reaction, He/H2",polycrystalline,300,7.83,26.1,353300,4954,699.7,258.55,21.546,12,0.806,5.45E-08,676,7.54E-05
[...]
10.1557/jmr.2011.140,0.022,-204,0.08,Ca1Mn0.98Nb0.02O3,Ultrasonic Spray Pyrolysis,polycrystalline,400,2.075,28.75,1087,1950,1369,208.21,10.41,20,46.4,0.000193,41600,0.022
10.1557/jmr.2011.140,0.028,-235,0.14,Ca1Mn0.98Nb0.02O3,Ultrasonic Spray Pyrolysis,polycrystalline,700,1.631,28.75,1087,1950,1369,208.21,10.41,20,35.3,0.000194,55000,0.037
10.1557/jmr.2011.140,0.031,-248,0.2,Ca1Mn0.98Nb0.02O3,Ultrasonic Spray Pyrolysis,polycrystalline,1000,1.381,28.75,1087,1950,1369,208.21,10.41,20,32.4,0.0002,61600,0.057
10.1557/jmr.2011.163,0.00113,-192,0.98,In0.2Co4Sb12,Solid state reaction,polycrystalline,300,2.57,106.16,4318000,7180,3295,742.742,22.924,32.4,882,0.00326,36900,0.251
10.1557/jmr.2011.163,0.00129,-214,1.43,In0.2Co4Sb12,Solid state reaction,polycrystalline,400,2.214,106.16,4318000,7180,3295,742.742,22.924,32.4,777,0.00357,46000,0.342
10.1557/jmr.2011.163,0.0016,-248,2.68,In0.2Co4Sb12,Solid state reaction,polycrystalline,700,1.937,106.16,4318000,7180,3295,742.742,22.924,32.4,626,0.00383,61300,0.552
10.1557/PROC-793-S3.3,0.00284,-20,0.00556,La1Ni1O3,"Evaporate nitrates (1173 K, air)",polycrystalline,400,,49.12,17470,5693,2221,339.43,11.314,30,352,1.39E-05,395,
10.1557/PROC-793-S3.3,0.00267,-21,0.00657,La0.9Bi0.1Ni1O3,"Evaporate nitrates (1173 K, air)",polycrystalline,400,,50.52,4882000,5452,2483,339.43,11.314,30,374,1.64E-05,439,
10.1557/PROC-793-S3.3,0.0046,-26,0.01,La1Ni1O3,"Evaporate nitrates (1173 K, air)",polycrystalline,700,,49.12,17470,5693,2221,339.43,11.314,30,217,1.44E-05,664,
10.1557/PROC-793-S3.3,0.00413,-28,0.01,La0.9Bi0.1Ni1O3,"Evaporate nitrates (1173 K, air)",polycrystalline,700,,50.52,4882000,5452,2483,339.43,11.314,30,242,1.96E-05,810,
10.1557/PROC-793-S3.3,0.00622,-27,0.01,La1Ni1O3,"Evaporate nitrates (1173 K, air)",polycrystalline,1000,,49.12,17470,5693,2221,339.43,11.314,30,161,1.17E-05,731,
10.1557/PROC-793-S3.3,0.00609,-31,0.02,La0.9Bi0.1Ni1O3,"Evaporate nitrates (1173 K, air)",polycrystalline,1000,,50.52,4882000,5452,2483,339.43,11.314,30,164,1.56E-05,948,
10.3390/ma3042606,0.000324,-41,0.16,Bi1.2S1.2Ti2S4,"solid-liquid-vapor reaction, vacuum",polycrystalline,300,2.94,61.1,28740000,3036,3543,175.2,20.857,8.4,3090,0.000526,1710,0.768
10.3390/ma3042606,0.00046,-51,0.17,Pb1.8S1.8Ti2S4,"solid-liquid-vapor reaction, vacuum",polycrystalline,300,2.9,68.19,48160,1920,1526,175.2,20.857,8.4,2170,0.000561,2580,0.549
10.3390/ma3042606,0.000478,-65,0.26,Sn1.2S1.2Ti2S4,"solid-liquid-vapor reaction, vacuum",polycrystalline,300,2.66,48.21,157400,1480,1355,175.2,20.857,8.4,2090,0.000878,4200,0.576
10.3390/ma3042606,0.000499,-55,0.24,Bi1.2S1.2Ti2S4,"solid-liquid-vapor reaction, vacuum",polycrystalline,400,2.41,61.1,28740000,3036,3543,175.2,20.857,8.4,2000,0.000603,3010,0.812
10.3390/ma3042606,0.000728,-71,0.28,Pb1.8S1.8Ti2S4,"solid-liquid-vapor reaction, vacuum",polycrystalline,400,2.51,68.19,48160,1920,1526,175.2,20.857,8.4,1370,0.000689,5010,0.534
10.3390/ma3042606,0.00085,-89,0.37,Sn1.2S1.2Ti2S4,"solid-liquid-vapor reaction, vacuum",polycrystalline,400,2.03,48.21,157400,1480,1355,175.2,20.857,8.4,1180,0.000928,7890,0.566
10.3390/ma3042606,0.000948,-89,0.59,Bi1.2S1.2Ti2S4,"solid-liquid-vapor reaction, vacuum",polycrystalline,700,2.11,61.1,28740000,3036,3543,175.2,20.857,8.4,1050,0.000838,7940,0.854
10.3390/ma3042606,0.00217,-129,0.53,Pb1.8S1.8Ti2S4,"solid-liquid-vapor reaction, vacuum",polycrystalline,700,1.95,68.19,48160,1920,1526,175.2,20.857,8.4,460,0.000764,16600,0.403
10.3390/ma3042606,0.00217,-141,0.64,Sn1.2S1.2Ti2S4,"solid-liquid-vapor reaction, vacuum",polycrystalline,700,1.69,48.21,157400,1480,1355,175.2,20.857,8.4,460,0.000912,19800,0.465
10.1063/1.15623,0.00197,126,0.24,Ca3Co4O9,"flux (SrCl2), air",single crystal,300,3.51,31.25,17150,2511,1757,147.11,10.865,13.54,507,0.000799,15800,0.106
10.1063/1.15623,0.00217,152,0.43,Ca3Co4O9,"flux (SrCl2), air",single crystal,400,3.444,31.25,17150,2511,1757,147.11,10.865,13.54,460,0.00106,23100,0.13
10.1063/1.15623,0.00231,197,1.17,Ca3Co4O9,"flux (SrCl2), air",single crystal,700,3.15,31.25,17150,2511,1757,147.11,10.865,13.54,432,0.00168,38800,0.234
10.1063/1.15623,0.00227,245,2.64,Ca3Co4O9,"flux (SrCl2), air",single crystal,1000,2.837,31.25,17150,2511,1757,147.11,10.865,13.54,440,0.00264,60000,0.379
10.1126/science.272.5266.1325,0.000993,68,0.14,Ce1Fe4Sb12,"melted, vacuum",polycrystalline,300,,107.33,4005000,7355,3146,762.3,22.421,34,1010,0.000469,4660,
10.1126/science.272.5266.1326,0.00147,87,0.15,Ce1Fe3Co1Sb12,"melted, vacuum",polycrystalline,300,1.37,107.51,4000000,7367,3185,756.81,22.259,34,679,0.000509,7490,0.363
10.1126/science.272.5266.1327,0.00274,104,0.12,Ce1Fe2.5Co1.5Sb12,"melted, vacuum",polycrystalline,300,,107.6,3997000,7373,3204,756.81,22.259,34,365,0.000397,10900,
10.1126/science.272.5266.1328,0.00473,108,0.07,Ce1Fe2Co2Sb12,"melted, vacuum",polycrystalline,300,,107.69,3994000,7379,3223,747,21.971,34,211,0.000245,11600,
10.1126/science.272.5266.1329,0.01,-87,0.02,Ce1Fe1Co3Sb12,"melted, vacuum",polycrystalline,300,,107.88,3988000,7391,3261,747,21.971,34,95.7,7.24E-05,7570,
10.1126/science.272.5266.1330,0.061,16,0.000131,Ce1Fe1.5Co2.5Sb12,"melted, vacuum",polycrystalline,300,,107.78,3991000,7385,3242,747,21.971,34,16.4,4.38E-07,267,
10.1126/science.272.5266.1331,0.00164,108,0.21,La1Fe3Co1Sb12,"melted, vacuum",polycrystalline,300,1.6,107.44,4003000,7366,3185,752.85,22.143,34,609,0.000715,11700,0.278
10.1126/science.272.5266.1332,0.00106,87,0.29,Ce1Fe4Sb12,"melted, vacuum",polycrystalline,400,,107.33,4005000,7355,3146,762.3,22.421,34,947,0.000717,7570,
10.1126/science.272.5266.1333,0.00163,108,0.29,Ce1Fe3Co1Sb12,"melted, vacuum",polycrystalline,400,,107.51,4000000,7367,3185,756.81,22.259,34,615,0.000713,11600,
10.1126/science.272.5266.1334,0.00288,123,0.21,Ce1Fe2.5Co1.5Sb12,"melted, vacuum",polycrystalline,400,,107.6,3997000,7373,3204,756.81,22.259,34,347,0.000526,15100,
10.1126/science.272.5266.1335,0.00481,135,0.15,Ce1Fe2Co2Sb12,"melted, vacuum",polycrystalline,400,,107.69,3994000,7379,3223,747,21.971,34,208,0.000376,18100,
10.1126/science.272.5266.1336,0.00985,-102,0.04,Ce1Fe1Co3Sb12,"melted, vacuum",polycrystalline,400,,107.88,3988000,7391,3261,747,21.971,34,101,0.000106,10500,
10.1126/science.272.5266.1337,0.045,12,0.000129,Ce1Fe1.5Co2.5Sb12,"melted, vacuum",polycrystalline,400,,107.78,3991000,7385,3242,747,21.971,34,22.4,3.23E-07,144,
10.1126/science.272.5266.1338,0.00183,143,0.44,La1Fe3Co1Sb12,"melted, vacuum",polycrystalline,400,1.6,107.44,4003000,7366,3185,752.85,22.143,34,546,0.00111,20400,0.333
10.1126/science.272.5266.1339,0.0013,129,0.89,Ce1Fe4Sb12,"melted, vacuum",polycrystalline,700,,107.33,4005000,7355,3146,762.3,22.421,34,768,0.00127,16600,
10.1126/science.272.5266.1340,0.00202,150,0.78,Ce1Fe3Co1Sb12,"melted, vacuum",polycrystalline,700,,107.51,4000000,7367,3185,756.81,22.259,34,496,0.00111,22500,
10.1126/science.272.5266.1341,0.00331,162,0.56,Ce1Fe2.5Co1.5Sb12,"melted, vacuum",polycrystalline,700,,107.6,3997000,7373,3204,756.81,22.259,34,302,0.000793,26200,
10.1126/science.272.5266.1342,0.00488,164,0.39,Ce1Fe2Co2Sb12,"melted, vacuum",polycrystalline,700,,107.69,3994000,7379,3223,747,21.971,34,205,0.000551,26900,
10.1126/science.272.5266.1343,0.00609,-141,0.23,Ce1Fe1Co3Sb12,"melted, vacuum",polycrystalline,700,,107.88,3988000,7391,3261,747,21.971,34,164,0.000326,19800,
10.1126/science.272.5266.1344,0.012,-36,0.00742,Ce1Fe1.5Co2.5Sb12,"melted, vacuum",polycrystalline,700,,107.78,3991000,7385,3242,747,21.971,34,83.8,1.06E-05,1260,
10.1126/science.272.5266.1345,0.00232,210,1.34,La1Fe3Co1Sb12,"melted, vacuum",polycrystalline,700,1.57,107.44,4003000,7366,3185,752.85,22.143,34,431,0.00191,44300,0.469
10.1126/science.272.5266.1346,0.00174,157,1.41,Ce1Fe4Sb12,"melted, vacuum",polycrystalline,1000,,107.33,4005000,7355,3146,762.3,22.421,34,574,0.00141,24600,
10.1126/science.272.5266.1347,0.0023,176,1.35,Ce1Fe3Co1Sb12,"melted, vacuum",polycrystalline,1000,,107.51,4000000,7367,3185,756.81,22.259,34,434,0.00135,31100,
10.1126/science.272.5266.1348,0.00339,190,1.06,Ce1Fe2.5Co1.5Sb12,"melted, vacuum",polycrystalline,1000,,107.6,3997000,7373,3204,756.81,22.259,34,295,0.00106,36100,
10.1126/science.272.5266.1349,0.00499,118,0.28,Ce1Fe2Co2Sb12,"melted, vacuum",polycrystalline,1000,,107.69,3994000,7379,3223,747,21.971,34,200,0.000278,13900,
10.1126/science.272.5266.1350,0.00448,-138,0.42,Ce1Fe1Co3Sb12,"melted, vacuum",polycrystalline,1000,,107.88,3988000,7391,3261,747,21.971,34,223,0.000425,19000,
10.1126/science.272.5266.1351,0.00397,-90,0.2,Ce1Fe1.5Co2.5Sb12,"melted, vacuum",polycrystalline,1000,,107.78,3991000,7385,3242,747,21.971,34,252,0.000203,8080,